Typical Measured Spectrum of Semrock Di03-R488 Optical Filter	
For wavelengths between 320 and 1120 nm, values near or below 3e-7 (Optical Density 6.5) are measurement noise limited.
For wavelengths < 320 nm and > 1120 nm, values near or below 3e-6 (Optical Density 5.5) are measurement noise limited. 
Data format:  Wavelength (nm) <tab> Transmission (0 to 1)

345.0	0.01504
345.2	0.01463
345.4	0.01193
345.6	0.00688
345.8	0.0044
346.0	0.00391
346.2	0.00542
346.4	0.00827
346.6	0.00964
346.8	0.00991
347.0	0.00824
347.2	0.00528
347.4	0.00351
347.6	0.00286
347.8	0.00364
348.0	0.00491
348.2	0.00625
348.4	0.0062
348.6	0.00507
348.8	0.00395
349.0	0.00262
349.2	0.0021
349.4	0.00217
349.6	0.00301
349.8	0.00435
350.0	0.00475
350.2	0.00469
350.4	0.00429
350.6	0.00281
350.8	0.00214
351.0	0.00191
351.2	0.00205
351.4	0.00289
351.6	0.00413
351.8	0.00446
352.0	0.00439
352.2	0.00338
352.4	0.00257
352.6	0.00186
352.8	0.0017
353.0	0.00222
353.2	0.0031
353.4	0.00366
353.6	0.00417
353.8	0.00366
354.0	0.00281
354.2	0.00222
354.4	0.0015
354.6	0.00142
354.8	0.00172
355.0	0.00253
355.2	0.00355
355.4	0.00387
355.6	0.00378
355.8	0.003
356.0	0.0023
356.2	0.00157
356.4	0.00144
356.6	0.00164
356.8	0.0027
357.0	0.00383
357.2	0.00445
357.4	0.00462
357.6	0.0041
357.8	0.0029
358.0	0.0021
358.2	0.00174
358.4	0.00185
358.6	0.00302
358.8	0.00518
359.0	0.00694
359.2	0.00792
359.4	0.00745
359.6	0.00554
359.8	0.00392
360.0	0.00291
360.2	0.00381
360.4	0.00764
360.6	0.01234
360.8	0.01501
361.0	0.01592
361.2	0.01435
361.4	0.01107
361.6	0.00807
361.8	0.00938
362.0	0.01465
362.2	0.0189
362.4	0.02072
362.6	0.01965
362.8	0.01703
363.0	0.01109
363.2	0.00785
363.4	0.0083
363.6	0.01125
363.8	0.01274
364.0	0.01283
364.2	0.01138
364.4	0.00916
364.6	0.00545
364.8	0.00327
365.0	0.00258
365.2	0.00216
365.4	0.00334
365.6	0.00469
365.8	0.00589
366.0	0.00617
366.2	0.00548
366.4	0.00381
366.6	0.0022
366.8	0.00136
367.0	0.00123
367.2	0.00125
367.4	0.00176
367.6	0.00355
367.8	0.00566
368.0	0.00681
368.2	0.00736
368.4	0.00657
368.6	0.00479
368.8	0.00304
369.0	0.00224
369.2	0.00359
369.4	0.00826
369.6	0.01252
369.8	0.0143
370.0	0.01484
370.2	0.01316
370.4	0.00916
370.6	0.00446
370.8	0.0023
371.0	0.00216
371.2	0.00248
371.4	0.00493
371.6	0.00977
371.8	0.01335
372.0	0.0149
372.2	0.01532
372.4	0.01328
372.6	0.00914
372.8	0.00527
373.0	0.00472
373.2	0.00832
373.4	0.01268
373.6	0.01506
373.8	0.01584
374.0	0.01493
374.2	0.01191
374.4	0.00725
374.6	0.00381
374.8	0.00299
375.0	0.00375
375.2	0.00668
375.4	0.01143
375.6	0.01435
375.8	0.01586
376.0	0.01524
376.2	0.01248
376.4	0.00797
376.6	0.00433
376.8	0.00313
377.0	0.00372
377.2	0.00678
377.4	0.0112
377.6	0.01405
377.8	0.01549
378.0	0.01518
378.2	0.01277
378.4	0.00831
378.6	0.00449
378.8	0.0033
379.0	0.00379
379.2	0.00685
379.4	0.01184
379.6	0.01537
379.8	0.0171
380.0	0.017
380.2	0.0147
380.4	0.01051
380.6	0.0059
380.8	0.00391
381.0	0.00444
381.2	0.00736
381.4	0.01218
381.6	0.0155
381.8	0.01685
382.0	0.01713
382.2	0.01496
382.4	0.01072
382.6	0.00598
382.8	0.0039
383.0	0.00381
383.2	0.00584
383.4	0.01041
383.6	0.01457
383.8	0.01648
384.0	0.01697
384.2	0.01552
384.4	0.01163
384.6	0.00676
384.8	0.00398
385.0	0.00319
385.2	0.00391
385.4	0.00733
385.6	0.01216
385.8	0.01523
386.0	0.01676
386.2	0.01633
386.4	0.01392
386.6	0.00952
386.8	0.00505
387.0	0.00304
387.2	0.00244
387.4	0.00284
387.6	0.00564
387.8	0.0106
388.0	0.01427
388.2	0.01621
388.4	0.01695
388.6	0.01508
388.8	0.01112
389.0	0.00652
389.2	0.00375
389.4	0.00279
389.6	0.0029
389.8	0.00509
390.0	0.01028
390.2	0.01477
390.4	0.01749
390.6	0.01845
390.8	0.01752
391.0	0.01412
391.2	0.00909
391.4	0.00505
391.6	0.00355
391.8	0.00334
392.0	0.00527
392.2	0.01002
392.4	0.01569
392.6	0.0194
392.8	0.02119
393.0	0.02091
393.2	0.01836
393.4	0.01291
393.6	0.00785
393.8	0.00531
394.0	0.00521
394.2	0.00729
394.4	0.01234
394.6	0.01681
394.8	0.01956
395.0	0.02068
395.2	0.01944
395.4	0.0158
395.6	0.01068
395.8	0.00681
396.0	0.00452
396.2	0.00405
396.4	0.005
396.6	0.00902
396.8	0.01453
397.0	0.01916
397.2	0.02173
397.4	0.02218
397.6	0.02023
397.8	0.01605
398.0	0.01049
398.2	0.00667
398.4	0.0053
398.6	0.00529
398.8	0.00808
399.0	0.01423
399.2	0.01969
399.4	0.02352
399.6	0.02516
399.8	0.02374
400.0	0.01981
400.2	0.01395
400.4	0.00874
400.6	0.00553
400.8	0.005
401.0	0.00633
401.2	0.01031
401.4	0.01686
401.6	0.02358
401.8	0.02753
402.0	0.02877
402.2	0.02743
402.4	0.02276
402.6	0.01666
402.8	0.01107
403.0	0.0087
403.2	0.00986
403.4	0.01397
403.6	0.02
403.8	0.0249
404.0	0.02758
404.2	0.02724
404.4	0.02475
404.6	0.01972
404.8	0.01368
405.0	0.00895
405.2	0.00713
405.4	0.00756
405.6	0.01023
405.8	0.01577
406.0	0.02178
406.2	0.02583
406.4	0.02721
406.6	0.02579
406.8	0.02203
407.0	0.01643
407.2	0.01083
407.4	0.00729
407.6	0.00615
407.8	0.00765
408.0	0.01134
408.2	0.01619
408.4	0.02018
408.6	0.02169
408.8	0.02155
409.0	0.01886
409.2	0.01448
409.4	0.00927
409.6	0.00536
409.8	0.00368
410.0	0.00301
410.2	0.00339
410.4	0.00501
410.6	0.00831
410.8	0.01171
411.0	0.0143
411.2	0.01507
411.4	0.01437
411.6	0.0121
411.8	0.00889
412.0	0.00554
412.2	0.00306
412.4	0.00198
412.6	0.00165
412.8	0.00166
413.0	0.00198
413.2	0.00313
413.4	0.0049
413.6	0.00704
413.8	0.00836
414.0	0.00908
414.2	0.00876
414.4	0.0076
414.6	0.00585
414.8	0.00383
415.0	0.00231
415.2	0.00157
415.4	0.00139
415.6	0.00134
415.8	0.00158
416.0	0.00217
416.2	0.00361
416.4	0.00606
416.6	0.00844
416.8	0.01006
417.0	0.01035
417.2	0.00975
417.4	0.00848
417.6	0.0064
417.8	0.00423
418.0	0.00274
418.2	0.00204
418.4	0.0018
418.6	0.00202
418.8	0.00277
419.0	0.0044
419.2	0.00777
419.4	0.01242
419.6	0.01576
419.8	0.01778
420.0	0.01784
420.2	0.01642
420.4	0.01356
420.6	0.0099
420.8	0.00671
421.0	0.00484
421.2	0.0045
421.4	0.00511
421.6	0.00745
421.8	0.01269
422.0	0.01991
422.2	0.02605
422.4	0.02962
422.6	0.03045
422.8	0.02831
423.0	0.02367
423.2	0.0176
423.4	0.01154
423.6	0.00781
423.8	0.0063
424.0	0.00642
424.2	0.00769
424.4	0.01113
424.6	0.01714
424.8	0.02445
425.0	0.02962
425.2	0.03216
425.4	0.03143
425.6	0.02842
425.8	0.02323
426.0	0.01697
426.2	0.01161
426.4	0.00806
426.6	0.00661
426.8	0.00609
427.0	0.00636
427.2	0.00804
427.4	0.01085
427.6	0.01611
427.8	0.02342
428.0	0.03096
428.2	0.03597
428.4	0.03805
428.6	0.03707
428.8	0.03288
429.0	0.02612
429.2	0.01897
429.4	0.01299
429.6	0.00907
429.8	0.00692
430.0	0.00593
430.2	0.00547
430.4	0.00547
430.6	0.00626
430.8	0.0078
431.0	0.01076
431.2	0.01455
431.4	0.01808
431.6	0.02034
431.8	0.02106
432.0	0.02014
432.2	0.01728
432.4	0.01325
432.6	0.00886
432.8	0.00563
433.0	0.00371
433.2	0.00269
433.4	0.00233
433.6	0.00211
433.8	0.00214
434.0	0.00241
434.2	0.00304
434.4	0.00428
434.6	0.00585
434.8	0.00721
435.0	0.00815
435.2	0.00856
435.4	0.00821
435.6	0.00723
435.8	0.00575
436.0	0.00401
436.2	0.00269
436.4	0.00192
436.6	0.0015
436.8	0.00123
437.0	0.00122
437.2	0.00131
437.4	0.00147
437.6	0.0019
437.8	0.00268
438.0	0.00371
438.2	0.00471
438.4	0.00539
438.6	0.00575
438.8	0.00576
439.0	0.00512
439.2	0.00423
439.4	0.0032
439.6	0.00222
439.8	0.0017
440.0	0.00132
440.2	0.00116
440.4	0.00111
440.6	0.00124
440.8	0.00153
441.0	0.00193
441.2	0.0028
441.4	0.00417
441.6	0.00556
441.8	0.00664
442.0	0.00727
442.2	0.00735
442.4	0.0067
442.6	0.00571
442.8	0.00431
443.0	0.00295
443.2	0.00199
443.4	0.00147
443.6	0.0013
443.8	0.0013
444.0	0.00135
444.2	0.00145
444.4	0.00196
444.6	0.00277
444.8	0.00406
445.0	0.00557
445.2	0.00678
445.4	0.00749
445.6	0.00767
445.8	0.00723
446.0	0.00629
446.2	0.00493
446.4	0.00366
446.6	0.00261
446.8	0.00204
447.0	0.00179
447.2	0.0017
447.4	0.00173
447.6	0.00201
447.8	0.00257
448.0	0.00348
448.2	0.0051
448.4	0.00706
448.6	0.00905
448.8	0.01032
449.0	0.01097
449.2	0.01077
449.4	0.00978
449.6	0.00822
449.8	0.00632
450.0	0.00473
450.2	0.00355
450.4	0.00301
450.6	0.0028
450.8	0.00288
451.0	0.00315
451.2	0.00385
451.4	0.00523
451.6	0.00741
451.8	0.01044
452.0	0.01336
452.2	0.01553
452.4	0.01662
452.6	0.01642
452.8	0.01527
453.0	0.01318
453.2	0.01031
453.4	0.00759
453.6	0.00545
453.8	0.00419
454.0	0.00347
454.2	0.0032
454.4	0.00313
454.6	0.00332
454.8	0.00386
455.0	0.00487
455.2	0.00666
455.4	0.00909
455.6	0.01185
455.8	0.01419
456.0	0.01523
456.2	0.01555
456.4	0.01467
456.6	0.01271
456.8	0.01006
457.0	0.00714
457.2	0.0047
457.4	0.00316
457.6	0.0023
457.8	0.00191
458.0	0.00163
458.2	0.00152
458.4	0.00161
458.6	0.0017
458.8	0.0021
459.0	0.00264
459.2	0.00371
459.4	0.00501
459.6	0.00617
459.8	0.0069
460.0	0.00722
460.2	0.00701
460.4	0.00632
460.6	0.0053
460.8	0.00395
461.0	0.00262
461.2	0.0017
461.4	0.00121
461.6	9.3047e-04
461.8	8.178e-04
462.0	8.1181e-04
462.2	8.1597e-04
462.4	8.8701e-04
462.6	0.00106
462.8	0.00126
463.0	0.00167
463.2	0.00231
463.4	0.00288
463.6	0.00334
463.8	0.00359
464.0	0.00356
464.2	0.0034
464.4	0.00297
464.6	0.00232
464.8	0.00169
465.0	0.0012
465.2	8.2759e-04
465.4	6.0909e-04
465.6	5.6191e-04
465.8	4.8337e-04
466.0	4.5783e-04
466.2	5.1545e-04
466.4	5.7163e-04
466.6	6.1661e-04
466.8	7.5957e-04
467.0	9.1492e-04
467.2	0.00119
467.4	0.00156
467.6	0.00189
467.8	0.002
468.0	0.00222
468.2	0.00257
468.4	0.00244
468.6	0.00209
468.8	0.00168
469.0	0.00147
469.2	0.00121
469.4	0.00108
469.6	9.9282e-04
469.8	0.00102
470.0	9.8351e-04
470.2	9.8036e-04
470.4	0.00104
470.6	0.00105
470.8	0.00107
471.0	0.0013
471.2	0.0015
471.4	0.00179
471.6	0.0021
471.8	0.00224
472.0	0.00236
472.2	0.00238
472.4	0.00224
472.6	0.00207
472.8	0.00184
473.0	0.0015
473.2	0.00124
473.4	0.00116
473.6	0.00114
473.8	0.00104
474.0	0.00111
474.2	0.00111
474.4	0.00104
474.6	0.00107
474.8	0.00109
475.0	0.00122
475.2	0.00128
475.4	0.00154
475.6	0.00186
475.8	0.00206
476.0	0.00215
476.2	0.00219
476.4	0.00216
476.6	0.00197
476.8	0.00181
477.0	0.00159
477.2	0.00142
477.4	0.00128
477.6	0.00125
477.8	0.00128
478.0	0.00114
478.2	0.00121
478.4	0.00131
478.6	0.00127
478.8	0.00127
479.0	0.00124
479.2	0.00132
479.4	0.00131
479.6	0.00137
479.8	0.00134
480.0	0.00133
480.2	0.00137
480.4	0.00131
480.6	0.00141
480.8	0.00134
481.0	0.00136
481.2	0.00132
481.4	0.00137
481.6	0.00142
481.8	0.00138
482.0	0.00141
482.2	0.00137
482.4	0.00139
482.6	0.00141
482.8	0.00144
483.0	0.00143
483.2	0.0014
483.4	0.00149
483.6	0.00149
483.8	0.00145
484.0	3.0943e-04
484.2	9.2954e-05
484.4	9.2518e-05
484.6	9.2124e-05
484.8	9.1671e-05
485.0	1.0082e-04
485.2	9.0664e-05
485.4	8.9931e-05
485.6	8.9366e-05
485.8	8.8766e-05
486.0	8.8361e-05
486.2	8.8135e-05
486.4	8.7945e-05
486.6	8.7764e-05
486.8	8.7255e-05
487.0	8.6954e-05
487.2	8.6693e-05
487.4	8.6709e-05
487.6	8.6391e-05
487.8	8.6429e-05
488.0	8.5921e-05
488.2	8.5501e-05
488.4	8.5227e-05
488.6	8.4836e-05
488.8	1.0614e-04
489.0	1.2145e-04
489.2	1.6928e-04
489.4	1.4597e-04
489.6	2.0314e-04
489.8	2.7931e-04
490.0	3.7627e-04
490.2	4.8815e-04
490.4	6.1032e-04
490.6	7.9509e-04
490.8	0.00107
491.0	0.00146
491.2	0.00195
491.4	0.00266
491.6	0.0037
491.8	0.00499
492.0	0.00716
492.2	0.00978
492.4	0.01367
492.6	0.01904
492.8	0.02678
493.0	0.03776
493.2	0.05293
493.4	0.07327
493.6	0.09937
493.8	0.13116
494.0	0.16821
494.2	0.20821
494.4	0.25082
494.6	0.29343
494.8	0.33533
495.0	0.37147
495.2	0.40449
495.4	0.42991
495.6	0.44978
495.8	0.46582
496.0	0.47485
496.2	0.48039
496.4	0.48556
496.6	0.48861
496.8	0.49132
497.0	0.49392
497.2	0.49664
497.4	0.4982
497.6	0.49889
497.8	0.50074
498.0	0.5048
498.2	0.51249
498.4	0.52874
498.6	0.55893
498.8	0.60026
499.0	0.65332
499.2	0.7104
499.4	0.77016
499.6	0.82959
499.8	0.88054
500.0	0.91995
500.2	0.94662
500.4	0.95773
500.6	0.96337
500.8	0.96582
501.0	0.96653
501.2	0.96673
501.4	0.96679
501.6	0.96635
501.8	0.96836
502.0	0.96965
502.2	0.96898
502.4	0.96917
502.6	0.96986
502.8	0.97084
503.0	0.96968
503.2	0.96903
503.4	0.96815
503.6	0.96767
503.8	0.96716
504.0	0.9664
504.2	0.96711
504.4	0.96671
504.6	0.96478
504.8	0.96259
505.0	0.96103
505.2	0.96052
505.4	0.95852
505.6	0.95658
505.8	0.95498
506.0	0.95487
506.2	0.95653
506.4	0.95756
506.6	0.95834
506.8	0.96297
507.0	0.96521
507.2	0.96802
507.4	0.97071
507.6	0.97125
507.8	0.97127
508.0	0.97116
508.2	0.97007
508.4	0.96624
508.6	0.96377
508.8	0.96234
509.0	0.95955
509.2	0.95734
509.4	0.95596
509.6	0.95611
509.8	0.95485
510.0	0.95818
510.2	0.96019
510.4	0.96214
510.6	0.96437
510.8	0.9661
511.0	0.96535
511.2	0.96791
511.4	0.96765
511.6	0.96795
511.8	0.96755
512.0	0.96634
512.2	0.96712
512.4	0.96458
512.6	0.96223
512.8	0.96064
513.0	0.96056
513.2	0.95959
513.4	0.95973
513.6	0.95936
513.8	0.96271
514.0	0.96238
514.2	0.96286
514.4	0.96489
514.6	0.96585
514.8	0.96844
515.0	0.9688
515.2	0.96865
515.4	0.96931
515.6	0.97029
515.8	0.97006
516.0	0.97051
516.2	0.96921
516.4	0.96984
516.6	0.96825
516.8	0.96506
517.0	0.9657
517.2	0.96365
517.4	0.96423
517.6	0.96266
517.8	0.96047
518.0	0.96172
518.2	0.963
518.4	0.96314
518.6	0.96478
518.8	0.96556
519.0	0.9661
519.2	0.96691
519.4	0.96744
519.6	0.97039
519.8	0.97217
520.0	0.97294
520.2	0.9747
520.4	0.97472
520.6	0.97457
520.8	0.97329
521.0	0.9742
521.2	0.9752
521.4	0.97412
521.6	0.97334
521.8	0.97289
522.0	0.97257
522.2	0.97212
522.4	0.97173
522.6	0.96917
522.8	0.96881
523.0	0.96741
523.2	0.96617
523.4	0.96629
523.6	0.96866
523.8	0.96919
524.0	0.96983
524.2	0.96743
524.4	0.96771
524.6	0.96978
524.8	0.97046
525.0	0.972
525.2	0.97367
525.4	0.9734
525.6	0.97141
525.8	0.97136
526.0	0.97204
526.2	0.97163
526.4	0.97191
526.6	0.97155
526.8	0.97264
527.0	0.97207
527.2	0.97187
527.4	0.97111
527.6	0.97174
527.8	0.97302
528.0	0.9739
528.2	0.97376
528.4	0.97449
528.6	0.97582
528.8	0.97762
529.0	0.9781
529.2	0.97924
529.4	0.97839
529.6	0.97825
529.8	0.97867
530.0	0.97898
530.2	0.97958
530.4	0.97855
530.6	0.9783
530.8	0.97771
531.0	0.97844
531.2	0.97767
531.4	0.97722
531.6	0.97679
531.8	0.9763
532.0	0.97545
532.2	0.97465
532.4	0.97493
532.6	0.97588
532.8	0.97658
533.0	0.97583
533.2	0.97469
533.4	0.9753
533.6	0.97622
533.8	0.97776
534.0	0.97609
534.2	0.97533
534.4	0.97337
534.6	0.97404
534.8	0.97496
535.0	0.97626
535.2	0.97557
535.4	0.97358
535.6	0.97407
535.8	0.97245
536.0	0.97264
536.2	0.97302
536.4	0.9742
536.6	0.97531
536.8	0.9734
537.0	0.97385
537.2	0.97436
537.4	0.9746
537.6	0.97573
537.8	0.97668
538.0	0.97743
538.2	0.97722
538.4	0.97692
538.6	0.97808
538.8	0.97682
539.0	0.97847
539.2	0.979
539.4	0.97699
539.6	0.97659
539.8	0.97811
540.0	0.97615
540.2	0.97907
540.4	0.97685
540.6	0.977
540.8	0.97702
541.0	0.97511
541.2	0.97394
541.4	0.97515
541.6	0.97564
541.8	0.974
542.0	0.97286
542.2	0.97426
542.4	0.97389
542.6	0.97388
542.8	0.97544
543.0	0.97564
543.2	0.97548
543.4	0.97564
543.6	0.97665
543.8	0.97719
544.0	0.97611
544.2	0.97818
544.4	0.97805
544.6	0.97906
544.8	0.97991
545.0	0.97919
545.2	0.97904
545.4	0.97712
545.6	0.97537
545.8	0.97689
546.0	0.97726
546.2	0.97697
546.4	0.97541
546.6	0.97539
546.8	0.97392
547.0	0.97341
547.2	0.97403
547.4	0.97354
547.6	0.97519
547.8	0.9748
548.0	0.97453
548.2	0.97525
548.4	0.97591
548.6	0.97627
548.8	0.97656
549.0	0.97897
549.2	0.97824
549.4	0.97654
549.6	0.97848
549.8	0.97996
550.0	0.98019
550.2	0.98036
550.4	0.97867
550.6	0.97819
550.8	0.97655
551.0	0.97526
551.2	0.97413
551.4	0.97199
551.6	0.97457
551.8	0.9761
552.0	0.97549
552.2	0.97717
552.4	0.97724
552.6	0.97649
552.8	0.97743
553.0	0.98028
553.2	0.97953
553.4	0.97868
553.6	0.97999
553.8	0.98056
554.0	0.98043
554.2	0.97852
554.4	0.98039
554.6	0.98022
554.8	0.9794
555.0	0.97862
555.2	0.9784
555.4	0.97751
555.6	0.97716
555.8	0.97445
556.0	0.97454
556.2	0.97336
556.4	0.97243
556.6	0.97223
556.8	0.97206
557.0	0.96961
557.2	0.97085
557.4	0.9706
557.6	0.97218
557.8	0.97127
558.0	0.97144
558.2	0.97138
558.4	0.97211
558.6	0.97155
558.8	0.97368
559.0	0.97425
559.2	0.97442
559.4	0.97688
559.6	0.9752
559.8	0.97412
560.0	0.9745
560.2	0.97412
560.4	0.97371
560.6	0.97312
560.8	0.97504
561.0	0.97434
561.2	0.97504
561.4	0.97384
561.6	0.97275
561.8	0.97096
562.0	0.97143
562.2	0.97147
562.4	0.9687
562.6	0.96922
562.8	0.97021
563.0	0.9706
563.2	0.97155
563.4	0.97112
563.6	0.97118
563.8	0.97176
564.0	0.9719
564.2	0.974
564.4	0.97458
564.6	0.9757
564.8	0.97647
565.0	0.97727
565.2	0.97745
565.4	0.97782
565.6	0.97825
565.8	0.97719
566.0	0.97569
566.2	0.97434
566.4	0.97101
566.6	0.9708
566.8	0.97176
567.0	0.97118
567.2	0.96914
567.4	0.96819
567.6	0.96653
567.8	0.96455
568.0	0.9659
568.2	0.96729
568.4	0.96515
568.6	0.96462
568.8	0.96512
569.0	0.96431
569.2	0.96544
569.4	0.96753
569.6	0.9687
569.8	0.97027
570.0	0.97102
570.2	0.97233
570.4	0.97214
570.6	0.9742
570.8	0.97284
571.0	0.97188
571.2	0.97195
571.4	0.97201
571.6	0.97365
571.8	0.97432
572.0	0.97288
572.2	0.9727
572.4	0.97023
572.6	0.96893
572.8	0.96715
573.0	0.9669
573.2	0.96649
573.4	0.96683
573.6	0.96609
573.8	0.96652
574.0	0.96753
574.2	0.96638
574.4	0.96797
574.6	0.96677
574.8	0.96755
575.0	0.96814
575.2	0.96721
575.4	0.96716
575.6	0.9675
575.8	0.96768
576.0	0.96894
576.2	0.96795
576.4	0.96914
576.6	0.97079
576.8	0.97137
577.0	0.97275
577.2	0.972
577.4	0.97076
577.6	0.97015
577.8	0.97141
578.0	0.97283
578.2	0.97316
578.4	0.9704
578.6	0.96955
578.8	0.9699
579.0	0.96993
579.2	0.9673
579.4	0.9673
579.6	0.96722
579.8	0.96772
580.0	0.96849
580.2	0.9663
580.4	0.96645
580.6	0.96777
580.8	0.96692
581.0	0.968
581.2	0.96677
581.4	0.96524
581.6	0.96612
581.8	0.96733
582.0	0.96802
582.2	0.96803
582.4	0.96928
582.6	0.97159
582.8	0.97385
583.0	0.97598
583.2	0.97597
583.4	0.97696
583.6	0.97754
583.8	0.97991
584.0	0.9806
584.2	0.98386
584.4	0.98414
584.6	0.98395
584.8	0.98734
585.0	0.98722
585.2	0.98605
585.4	0.98604
585.6	0.986
585.8	0.9872
586.0	0.98554
586.2	0.98709
586.4	0.98632
586.6	0.98645
586.8	0.9868
587.0	0.98457
587.2	0.98505
587.4	0.98521
587.6	0.98514
587.8	0.9838
588.0	0.98546
588.2	0.98493
588.4	0.98474
588.6	0.98282
588.8	0.98381
589.0	0.9832
589.2	0.98459
589.4	0.98397
589.6	0.98386
589.8	0.98556
590.0	0.98543
590.2	0.9831
590.4	0.98294
590.6	0.98405
590.8	0.98346
591.0	0.98302
591.2	0.98134
591.4	0.98205
591.6	0.98096
591.8	0.9811
592.0	0.98151
592.2	0.9799
592.4	0.97809
592.6	0.97832
592.8	0.97747
593.0	0.97927
593.2	0.97948
593.4	0.97873
593.6	0.97863
593.8	0.97791
594.0	0.97837
594.2	0.9784
594.4	0.97559
594.6	0.97713
594.8	0.97978
595.0	0.97854
595.2	0.97891
595.4	0.9792
595.6	0.97798
595.8	0.97885
596.0	0.97818
596.2	0.97924
596.4	0.97838
596.6	0.97734
596.8	0.97831
597.0	0.97634
597.2	0.97762
597.4	0.97637
597.6	0.97624
597.8	0.97356
598.0	0.97462
598.2	0.97452
598.4	0.97316
598.6	0.97374
598.8	0.97207
599.0	0.97034
599.2	0.97183
599.4	0.9705
599.6	0.97092
599.8	0.97255
600.0	0.97179
600.2	0.9709
600.4	0.96976
600.6	0.97161
600.8	0.97118
601.0	0.97105
601.2	0.97044
601.4	0.9715
601.6	0.97102
601.8	0.96957
602.0	0.96881
602.2	0.96944
602.4	0.96888
602.6	0.96764
602.8	0.96884
603.0	0.96962
603.2	0.96925
603.4	0.96705
603.6	0.96776
603.8	0.96649
604.0	0.96633
604.2	0.96781
604.4	0.96725
604.6	0.96585
604.8	0.96541
605.0	0.96685
605.2	0.97267
605.4	0.97307
605.6	0.97298
605.8	0.97116
606.0	0.97127
606.2	0.97149
606.4	0.97149
606.6	0.97192
606.8	0.97335
607.0	0.97652
607.2	0.97873
607.4	0.97716
607.6	0.97588
607.8	0.97594
608.0	0.97378
608.2	0.97406
608.4	0.97335
608.6	0.97494
608.8	0.97396
609.0	0.97519
609.2	0.97496
609.4	0.97321
609.6	0.97333
609.8	0.97373
610.0	0.9739
610.2	0.97217
610.4	0.97262
610.6	0.97182
610.8	0.96996
611.0	0.9719
611.2	0.97287
611.4	0.9735
611.6	0.97362
611.8	0.97424
612.0	0.97564
612.2	0.9766
612.4	0.97664
612.6	0.97582
612.8	0.97518
613.0	0.97587
613.2	0.9769
613.4	0.97962
613.6	0.97879
613.8	0.97796
614.0	0.97869
614.2	0.98049
614.4	0.98025
614.6	0.98011
614.8	0.97936
615.0	0.97942
615.2	0.97849
615.4	0.97838
615.6	0.97771
615.8	0.97643
616.0	0.97499
616.2	0.97337
616.4	0.97276
616.6	0.97089
616.8	0.97048
617.0	0.97081
617.2	0.97115
617.4	0.97257
617.6	0.97265
617.8	0.97132
618.0	0.96978
618.2	0.9714
618.4	0.97141
618.6	0.97203
618.8	0.97305
619.0	0.97332
619.2	0.9753
619.4	0.97622
619.6	0.97825
619.8	0.97923
620.0	0.97935
620.2	0.98106
620.4	0.98141
620.6	0.98065
620.8	0.98056
621.0	0.98007
621.2	0.98021
621.4	0.97964
621.6	0.97935
621.8	0.97904
622.0	0.97737
622.2	0.97481
622.4	0.97396
622.6	0.97325
622.8	0.97198
623.0	0.97113
623.2	0.97252
623.4	0.97251
623.6	0.97129
623.8	0.97017
624.0	0.96913
624.2	0.96644
624.4	0.96735
624.6	0.96681
624.8	0.96699
625.0	0.96866
625.2	0.96834
625.4	0.96998
625.6	0.97113
625.8	0.96986
626.0	0.9706
626.2	0.97222
626.4	0.97332
626.6	0.97635
626.8	0.97665
627.0	0.97572
627.2	0.97709
627.4	0.97643
627.6	0.97446
627.8	0.97613
628.0	0.97779
628.2	0.97684
628.4	0.97785
628.6	0.97726
628.8	0.97813
629.0	0.97774
629.2	0.97776
629.4	0.9788
629.6	0.97667
629.8	0.97742
630.0	0.97549
630.2	0.97397
630.4	0.97413
630.6	0.97283
630.8	0.97258
631.0	0.97285
631.2	0.97392
631.4	0.97294
631.6	0.97268
631.8	0.97108
632.0	0.97154
632.2	0.97218
632.4	0.97295
632.6	0.97266
632.8	0.97091
633.0	0.96999
633.2	0.97179
633.4	0.97369
633.6	0.97228
633.8	0.97517
634.0	0.97604
634.2	0.97559
634.4	0.9764
634.6	0.97459
634.8	0.97598
635.0	0.97658
635.2	0.97606
635.4	0.97563
635.6	0.97502
635.8	0.97495
636.0	0.97462
636.2	0.97458
636.4	0.97441
636.6	0.9729
636.8	0.97385
637.0	0.97348
637.2	0.97144
637.4	0.97301
637.6	0.97333
637.8	0.97223
638.0	0.97176
638.2	0.97467
638.4	0.97443
638.6	0.97139
638.8	0.96976
639.0	0.97324
639.2	0.97242
639.4	0.97195
639.6	0.97206
639.8	0.97327
640.0	0.97291
640.2	0.97283
640.4	0.97399
640.6	0.97423
640.8	0.97437
641.0	0.97252
641.2	0.97355
641.4	0.97501
641.6	0.97471
641.8	0.9761
642.0	0.97603
642.2	0.97566
642.4	0.97675
642.6	0.97454
642.8	0.97275
643.0	0.97357
643.2	0.97421
643.4	0.97437
643.6	0.97364
643.8	0.9745
644.0	0.97758
644.2	0.97644
644.4	0.97741
644.6	0.9747
644.8	0.97326
645.0	0.97363
645.2	0.97106
645.4	0.97039
645.6	0.97102
645.8	0.97259
646.0	0.97317
646.2	0.97211
646.4	0.97261
646.6	0.97396
646.8	0.97171
647.0	0.97194
647.2	0.9737
647.4	0.97155
647.6	0.9724
647.8	0.97268
648.0	0.97412
648.2	0.97591
648.4	0.97513
648.6	0.97514
648.8	0.97654
649.0	0.97765
649.2	0.97872
649.4	0.97894
649.6	0.97733
649.8	0.97608
650.0	0.97432
650.2	0.97375
650.4	0.97221
650.6	0.97304
650.8	0.97457
651.0	0.97487
651.2	0.97567
651.4	0.9758
651.6	0.9739
651.8	0.97205
652.0	0.97293
652.2	0.97368
652.4	0.97335
652.6	0.97252
652.8	0.97263
653.0	0.97212
653.2	0.97115
653.4	0.97254
653.6	0.97038
653.8	0.97019
654.0	0.97369
654.2	0.97201
654.4	0.97028
654.6	0.97048
654.8	0.9716
655.0	0.9703
655.2	0.97108
655.4	0.97278
655.6	0.97199
655.8	0.9711
656.0	0.97356
656.2	0.97428
656.4	0.97468
656.6	0.97306
656.8	0.9736
657.0	0.97624
657.2	0.97632
657.4	0.97615
657.6	0.97633
657.8	0.97709
658.0	0.97705
658.2	0.97701
658.4	0.97582
658.6	0.97803
658.8	0.97962
659.0	0.9779
659.2	0.97831
659.4	0.97791
659.6	0.97568
659.8	0.97379
660.0	0.97169
660.2	0.97305
660.4	0.97473
660.6	0.97601
660.8	0.97586
661.0	0.97762
661.2	0.9769
661.4	0.97627
661.6	0.97984
661.8	0.98072
662.0	0.98076
662.2	0.98222
662.4	0.97924
662.6	0.97965
662.8	0.98104
663.0	0.98036
663.2	0.97947
663.4	0.97851
663.6	0.97824
663.8	0.97942
664.0	0.98011
664.2	0.98131
664.4	0.98186
664.6	0.98195
664.8	0.981
665.0	0.98032
665.2	0.97883
665.4	0.97803
665.6	0.97689
665.8	0.97663
666.0	0.97653
666.2	0.9783
666.4	0.97953
666.6	0.97961
666.8	0.97923
667.0	0.97776
667.2	0.97705
667.4	0.97639
667.6	0.97647
667.8	0.97522
668.0	0.9742
668.2	0.97682
668.4	0.97641
668.6	0.97641
668.8	0.97741
669.0	0.9771
669.2	0.9744
669.4	0.97347
669.6	0.97479
669.8	0.97544
670.0	0.97426
670.2	0.97321
670.4	0.97324
670.6	0.97186
670.8	0.972
671.0	0.97291
671.2	0.97297
671.4	0.9734
671.6	0.97217
671.8	0.97363
672.0	0.97627
672.2	0.97768
672.4	0.97677
672.6	0.9772
672.8	0.97729
673.0	0.97668
673.2	0.9773
673.4	0.97602
673.6	0.97664
673.8	0.97645
674.0	0.97655
674.2	0.97557
674.4	0.97639
674.6	0.97624
674.8	0.97784
675.0	0.97813
675.2	0.97821
675.4	0.97604
675.6	0.97509
675.8	0.97499
676.0	0.97364
676.2	0.97536
676.4	0.97552
676.6	0.97446
676.8	0.97412
677.0	0.97185
677.2	0.97099
677.4	0.97176
677.6	0.97052
677.8	0.97013
678.0	0.97143
678.2	0.97095
678.4	0.97191
678.6	0.9708
678.8	0.97233
679.0	0.97438
679.2	0.97549
679.4	0.97671
679.6	0.97529
679.8	0.97392
680.0	0.9732
680.2	0.97396
680.4	0.97375
680.6	0.97396
680.8	0.97623
681.0	0.97641
681.2	0.97721
681.4	0.97691
681.6	0.97472
681.8	0.97462
682.0	0.97338
682.2	0.97318
682.4	0.9762
682.6	0.97789
682.8	0.97701
683.0	0.97684
683.2	0.97683
683.4	0.9753
683.6	0.9767
683.8	0.97787
684.0	0.9782
684.2	0.97825
684.4	0.97797
684.6	0.97663
684.8	0.9746
685.0	0.9732
685.2	0.97328
685.4	0.97249
685.6	0.974
685.8	0.97251
686.0	0.97226
686.2	0.97046
686.4	0.97186
686.6	0.97324
686.8	0.97279
687.0	0.97186
687.2	0.97051
687.4	0.97099
687.6	0.97149
687.8	0.97326
688.0	0.97333
688.2	0.9744
688.4	0.97439
688.6	0.97549
688.8	0.97516
689.0	0.97533
689.2	0.97617
689.4	0.97675
689.6	0.97728
689.8	0.98002
690.0	0.98077
690.2	0.98089
690.4	0.98116
690.6	0.98182
690.8	0.98265
691.0	0.98248
691.2	0.98233
691.4	0.98191
691.6	0.9814
691.8	0.98008
692.0	0.97903
692.2	0.9793
692.4	0.97844
692.6	0.97802
692.8	0.977
693.0	0.97643
693.2	0.97541
693.4	0.97328
693.6	0.97394
693.8	0.97222
694.0	0.97375
694.2	0.97569
694.4	0.97513
694.6	0.97552
694.8	0.97632
695.0	0.97504
695.2	0.97495
695.4	0.97625
695.6	0.97657
695.8	0.9751
696.0	0.97467
696.2	0.97338
696.4	0.97088
696.6	0.97313
696.8	0.97304
697.0	0.9729
697.2	0.97405
697.4	0.97493
697.6	0.97434
697.8	0.97415
698.0	0.97493
698.2	0.97677
698.4	0.9788
698.6	0.97913
698.8	0.97812
699.0	0.97662
699.2	0.9769
699.4	0.97852
699.6	0.97884
699.8	0.97918
700.0	0.98088
700.2	0.98028
700.4	0.97999
700.6	0.97914
700.8	0.97752
701.0	0.97615
701.2	0.97656
701.4	0.97615
701.6	0.97523
701.8	0.97484
702.0	0.9736
702.2	0.97179
702.4	0.9718
702.6	0.97166
702.8	0.96983
703.0	0.96836
703.2	0.96778
703.4	0.96798
703.6	0.96831
703.8	0.9677
704.0	0.96603
704.2	0.96696
704.4	0.97046
704.6	0.97159
704.8	0.97146
705.0	0.97323
705.2	0.9745
705.4	0.97335
705.6	0.97378
705.8	0.97629
706.0	0.97714
706.2	0.97614
706.4	0.97549
706.6	0.97508
706.8	0.97532
707.0	0.9778
707.2	0.9784
707.4	0.97824
707.6	0.97894
707.8	0.9783
708.0	0.97906
708.2	0.97948
708.4	0.97974
708.6	0.98068
708.8	0.97981
709.0	0.98038
709.2	0.98179
709.4	0.98152
709.6	0.98055
709.8	0.97966
710.0	0.98008
710.2	0.97934
710.4	0.97772
710.6	0.97599
710.8	0.97613
711.0	0.97458
711.2	0.97356
711.4	0.97364
711.6	0.97333
711.8	0.97207
712.0	0.97104
712.2	0.9718
712.4	0.97192
712.6	0.96952
712.8	0.9696
713.0	0.97045
713.2	0.96991
713.4	0.96996
713.6	0.96944
713.8	0.9685
714.0	0.96946
714.2	0.96988
714.4	0.97066
714.6	0.97289
714.8	0.9749
715.0	0.97504
715.2	0.97608
715.4	0.97735
715.6	0.97944
715.8	0.97936
716.0	0.97979
716.2	0.98059
716.4	0.97893
716.6	0.97884
716.8	0.98052
717.0	0.98346
717.2	0.98466
717.4	0.98475
717.6	0.98493
717.8	0.98362
718.0	0.98426
718.2	0.98191
718.4	0.97961
718.6	0.97955
718.8	0.97922
719.0	0.97903
719.2	0.97941
719.4	0.97941
719.6	0.97667
719.8	0.97601
720.0	0.97598
720.2	0.97511
720.4	0.97404
720.6	0.97329
720.8	0.97361
721.0	0.97377
721.2	0.97533
721.4	0.97226
721.6	0.97186
721.8	0.97196
722.0	0.97271
722.2	0.97389
722.4	0.97366
722.6	0.97281
722.8	0.97248
723.0	0.97294
723.2	0.97357
723.4	0.97494
723.6	0.97305
723.8	0.97298
724.0	0.97281
724.2	0.97245
724.4	0.9718
724.6	0.97279
724.8	0.97256
725.0	0.97384
725.2	0.97552
725.4	0.97918
725.6	0.98114
725.8	0.98136
726.0	0.98273
726.2	0.98441
726.4	0.98316
726.6	0.98228
726.8	0.98123
727.0	0.98134
727.2	0.9818
727.4	0.98182
727.6	0.98167
727.8	0.98085
728.0	0.98107
728.2	0.98192
728.4	0.98164
728.6	0.98149
728.8	0.9805
729.0	0.97853
729.2	0.97695
729.4	0.97557
729.6	0.97527
729.8	0.97419
730.0	0.97269
730.2	0.97436
730.4	0.97652
730.6	0.97495
730.8	0.97137
731.0	0.96954
731.2	0.97189
731.4	0.97194
731.6	0.9713
731.8	0.97103
732.0	0.97013
732.2	0.97055
732.4	0.97129
732.6	0.97253
732.8	0.97386
733.0	0.97307
733.2	0.97319
733.4	0.97323
733.6	0.97426
733.8	0.97315
734.0	0.97426
734.2	0.97536
734.4	0.97508
734.6	0.9742
734.8	0.97467
735.0	0.97466
735.2	0.97627
735.4	0.97749
735.6	0.97734
735.8	0.97598
736.0	0.97665
736.2	0.97706
736.4	0.97629
736.6	0.97542
736.8	0.97539
737.0	0.97616
737.2	0.97629
737.4	0.97705
737.6	0.97706
737.8	0.9777
738.0	0.97788
738.2	0.97621
738.4	0.97581
738.6	0.97708
738.8	0.97626
739.0	0.97729
739.2	0.97629
739.4	0.97599
739.6	0.97772
739.8	0.97624
740.0	0.97435
740.2	0.97226
740.4	0.97208
740.6	0.97273
740.8	0.97186
741.0	0.97089
741.2	0.97212
741.4	0.97312
741.6	0.97338
741.8	0.97443
742.0	0.97343
742.2	0.97238
742.4	0.97145
742.6	0.97131
742.8	0.9719
743.0	0.97036
743.2	0.97133
743.4	0.97386
743.6	0.97498
743.8	0.97573
744.0	0.97653
744.2	0.97787
744.4	0.9763
744.6	0.97701
744.8	0.97892
745.0	0.97821
745.2	0.97828
745.4	0.97846
745.6	0.97868
745.8	0.97856
746.0	0.97853
746.2	0.98007
746.4	0.98068
746.6	0.98023
746.8	0.9804
747.0	0.98011
747.2	0.98068
747.4	0.98274
747.6	0.98238
747.8	0.98218
748.0	0.98203
748.2	0.98068
748.4	0.97991
748.6	0.9789
748.8	0.97808
749.0	0.97787
749.2	0.97799
749.4	0.97873
749.6	0.97868
749.8	0.97635
750.0	0.97563
750.2	0.97723
750.4	0.97606
750.6	0.97446
750.8	0.97569
751.0	0.97675
751.2	0.9763
751.4	0.97346
751.6	0.97246
751.8	0.97451
752.0	0.97441
752.2	0.97445
752.4	0.97532
752.6	0.97687
752.8	0.97744
753.0	0.97748
753.2	0.97584
753.4	0.97674
753.6	0.97726
753.8	0.97838
754.0	0.97767
754.2	0.97899
754.4	0.98165
754.6	0.98318
754.8	0.98151
755.0	0.98299
755.2	0.98368
755.4	0.98461
755.6	0.98199
755.8	0.97948
756.0	0.98182
756.2	0.98581
756.4	0.98766
756.6	0.98806
756.8	0.98885
757.0	0.98628
757.2	0.98589
757.4	0.98564
757.6	0.98461
757.8	0.98394
758.0	0.98216
758.2	0.98265
758.4	0.98614
758.6	0.98667
758.8	0.98545
759.0	0.98291
759.2	0.98184
759.4	0.98025
759.6	0.97662
759.8	0.97539
760.0	0.97605
760.2	0.97625
760.4	0.97569
760.6	0.97539
760.8	0.97411
761.0	0.97588
761.2	0.97687
761.4	0.97803
761.6	0.97789
761.8	0.97736
762.0	0.97725
762.2	0.9769
762.4	0.97646
762.6	0.97544
762.8	0.97434
763.0	0.97445
763.2	0.97396
763.4	0.9732
763.6	0.97503
763.8	0.97532
764.0	0.97574
764.2	0.97706
764.4	0.97675
764.6	0.97705
764.8	0.97672
765.0	0.97836
765.2	0.98018
765.4	0.98031
765.6	0.97831
765.8	0.97998
766.0	0.98111
766.2	0.98172
766.4	0.98206
766.6	0.9812
766.8	0.97949
767.0	0.97848
767.2	0.97949
767.4	0.97901
767.6	0.9799
767.8	0.98073
768.0	0.98228
768.2	0.98412
768.4	0.98287
768.6	0.98108
768.8	0.97904
769.0	0.9788
769.2	0.97739
769.4	0.9784
769.6	0.97873
769.8	0.97885
770.0	0.97772
770.2	0.9779
770.4	0.97683
770.6	0.97477
770.8	0.97397
771.0	0.9751
771.2	0.97521
771.4	0.97568
771.6	0.9761
771.8	0.97568
772.0	0.97279
772.2	0.972
772.4	0.97184
772.6	0.97391
772.8	0.97655
773.0	0.9767
773.2	0.97612
773.4	0.97488
773.6	0.97523
773.8	0.97426
774.0	0.97161
774.2	0.97191
774.4	0.97385
774.6	0.97443
774.8	0.97588
775.0	0.9759
775.2	0.97594
775.4	0.97416
775.6	0.97378
775.8	0.97604
776.0	0.97684
776.2	0.97718
776.4	0.97705
776.6	0.97716
776.8	0.97854
777.0	0.97801
777.2	0.97844
777.4	0.97825
777.6	0.97845
777.8	0.98091
778.0	0.98048
778.2	0.9812
778.4	0.98456
778.6	0.98533
778.8	0.98465
779.0	0.98093
779.2	0.98061
779.4	0.97934
779.6	0.97858
779.8	0.97877
780.0	0.98019
780.2	0.98093
780.4	0.97964
780.6	0.97889
780.8	0.97735
781.0	0.9768
781.2	0.97787
781.4	0.97798
781.6	0.97827
781.8	0.9787
782.0	0.97737
782.2	0.97584
782.4	0.97502
782.6	0.97525
782.8	0.9758
783.0	0.97495
783.2	0.97385
783.4	0.97117
783.6	0.97143
783.8	0.97262
784.0	0.97477
784.2	0.97388
784.4	0.97271
784.6	0.97313
784.8	0.97436
785.0	0.97345
785.2	0.97257
785.4	0.97052
785.6	0.97065
785.8	0.97126
786.0	0.97283
786.2	0.97139
786.4	0.97315
786.6	0.97478
786.8	0.97427
787.0	0.97496
787.2	0.97568
787.4	0.97462
787.6	0.97517
787.8	0.97703
788.0	0.97787
788.2	0.97711
788.4	0.97829
788.6	0.97915
788.8	0.98001
789.0	0.97734
789.2	0.97541
789.4	0.97561
789.6	0.97462
789.8	0.97484
790.0	0.97467
790.2	0.97501
790.4	0.97565
790.6	0.97671
790.8	0.97709
791.0	0.97807
791.2	0.97996
791.4	0.97934
791.6	0.97769
791.8	0.97673
792.0	0.97652
792.2	0.97696
792.4	0.97688
792.6	0.97551
792.8	0.97382
793.0	0.97274
793.2	0.97342
793.4	0.97261
793.6	0.97322
793.8	0.97404
794.0	0.97306
794.2	0.97093
794.4	0.97234
794.6	0.97535
794.8	0.97583
795.0	0.97655
795.2	0.97414
795.4	0.97095
795.6	0.9722
795.8	0.97225
796.0	0.97241
796.2	0.97162
796.4	0.97051
796.6	0.96975
796.8	0.97056
797.0	0.97438
797.2	0.9753
797.4	0.97492
797.6	0.97286
797.8	0.97364
798.0	0.97406
798.2	0.97624
798.4	0.97916
798.6	0.98188
798.8	0.9811
799.0	0.97944
799.2	0.97831
799.4	0.97863
799.6	0.97784
799.8	0.97781
800.0	0.98058
800.2	0.98107
800.4	0.98029
800.6	0.97981
800.8	0.9799
801.0	0.97947
801.2	0.97829
801.4	0.97686
801.6	0.97556
801.8	0.97502
802.0	0.97666
802.2	0.97998
802.4	0.97993
802.6	0.9794
802.8	0.98046
803.0	0.9819
803.2	0.9831
803.4	0.98363
803.6	0.98565
803.8	0.98494
804.0	0.98411
804.2	0.98415
804.4	0.98466
804.6	0.98415
804.8	0.98365
805.0	0.98418
805.2	0.98466
805.4	0.9852
805.6	0.98398
805.8	0.98317
806.0	0.98148
806.2	0.98033
806.4	0.98133
806.6	0.98137
806.8	0.98077
807.0	0.9811
807.2	0.98102
807.4	0.98117
807.6	0.98172
807.8	0.98287
808.0	0.9834
808.2	0.98302
808.4	0.98438
808.6	0.98599
808.8	0.98355
809.0	0.97876
809.2	0.97579
809.4	0.97696
809.6	0.97877
809.8	0.97703
810.0	0.97651
810.2	0.97711
810.4	0.97579
810.6	0.97497
810.8	0.97437
811.0	0.97662
811.2	0.9779
811.4	0.97562
811.6	0.9757
811.8	0.97527
812.0	0.97275
812.2	0.97215
812.4	0.97352
812.6	0.97511
812.8	0.97408
813.0	0.97592
813.2	0.97585
813.4	0.97548
813.6	0.9766
813.8	0.97652
814.0	0.97644
814.2	0.97661
814.4	0.97886
814.6	0.97723
814.8	0.97755
815.0	0.97854
815.2	0.97816
815.4	0.97862
815.6	0.9801
815.8	0.97995
816.0	0.98095
816.2	0.98108
816.4	0.98198
816.6	0.9821
816.8	0.98113
817.0	0.98113
817.2	0.98081
817.4	0.98111
817.6	0.98357
817.8	0.98376
818.0	0.98371
818.2	0.98166
818.4	0.98194
818.6	0.98183
818.8	0.98109
819.0	0.97955
819.2	0.97922
819.4	0.97577
819.6	0.97434
819.8	0.975
820.0	0.97455
820.2	0.97467
820.4	0.97397
820.6	0.97528
820.8	0.97623
821.0	0.97459
821.2	0.97614
821.4	0.97427
821.6	0.97239
821.8	0.97214
822.0	0.97328
822.2	0.97155
822.4	0.97298
822.6	0.97416
822.8	0.97535
823.0	0.97636
823.2	0.97732
823.4	0.98013
823.6	0.9807
823.8	0.97976
824.0	0.97804
824.2	0.97824
824.4	0.97661
824.6	0.97501
824.8	0.9734
825.0	0.9746
825.2	0.97496
825.4	0.97519
825.6	0.97558
825.8	0.97604
826.0	0.97489
826.2	0.97817
826.4	0.98065
826.6	0.9816
826.8	0.98061
827.0	0.98034
827.2	0.98112
827.4	0.98222
827.6	0.98206
827.8	0.98204
828.0	0.9813
828.2	0.98364
828.4	0.98511
828.6	0.98432
828.8	0.9814
829.0	0.9819
829.2	0.98118
829.4	0.98155
829.6	0.98053
829.8	0.98095
830.0	0.98327
830.2	0.98383
830.4	0.98345
830.6	0.98263
830.8	0.98219
831.0	0.98287
831.2	0.98246
831.4	0.98086
831.6	0.97859
831.8	0.97773
832.0	0.97939
832.2	0.97922
832.4	0.9796
832.6	0.97798
832.8	0.97888
833.0	0.9793
833.2	0.97802
833.4	0.97606
833.6	0.97643
833.8	0.97888
834.0	0.97731
834.2	0.97632
834.4	0.97616
834.6	0.9759
834.8	0.97642
835.0	0.97684
835.2	0.97669
835.4	0.97687
835.6	0.97458
835.8	0.97426
836.0	0.97502
836.2	0.97717
836.4	0.97722
836.6	0.97765
836.8	0.97694
837.0	0.97842
837.2	0.97863
837.4	0.97958
837.6	0.97955
837.8	0.97901
838.0	0.97949
838.2	0.97974
838.4	0.9794
838.6	0.97849
838.8	0.97923
839.0	0.98149
839.2	0.98297
839.4	0.98208
839.6	0.98085
839.8	0.97933
840.0	0.98151
840.2	0.98365
840.4	0.98497
840.6	0.98503
840.8	0.98443
841.0	0.98506
841.2	0.98389
841.4	0.983
841.6	0.98332
841.8	0.98332
842.0	0.98286
842.2	0.98201
842.4	0.98074
842.6	0.97656
842.8	0.97496
843.0	0.97558
843.2	0.97555
843.4	0.97636
843.6	0.97449
843.8	0.97525
844.0	0.97525
844.2	0.97535
844.4	0.97453
844.6	0.97429
844.8	0.9746
845.0	0.9743
845.2	0.97403
845.4	0.97512
845.6	0.97414
845.8	0.9712
846.0	0.97086
846.2	0.97191
846.4	0.97277
846.6	0.97367
846.8	0.97461
847.0	0.9741
847.2	0.97281
847.4	0.96958
847.6	0.9721
847.8	0.97704
848.0	0.98058
848.2	0.98128
848.4	0.97943
848.6	0.97895
848.8	0.97795
849.0	0.97722
849.2	0.97736
849.4	0.97699
849.6	0.97778
849.8	0.97803
850.0	0.97908
850.2	0.97785
850.4	0.97662
850.6	0.97765
850.8	0.97832
851.0	0.98176
851.2	0.98085
851.4	0.98237
851.6	0.98286
851.8	0.98187
852.0	0.97986
852.2	0.98033
852.4	0.98016
852.6	0.9807
852.8	0.98115
853.0	0.98291
853.2	0.9834
853.4	0.98174
853.6	0.983
853.8	0.98415
854.0	0.98283
854.2	0.98345
854.4	0.98263
854.6	0.98076
854.8	0.97941
855.0	0.97767
855.2	0.97802
855.4	0.97854
855.6	0.98083
855.8	0.98228
856.0	0.98382
856.2	0.98262
856.4	0.98118
856.6	0.98059
856.8	0.98049
857.0	0.97981
857.2	0.97916
857.4	0.97951
857.6	0.97969
857.8	0.97783
858.0	0.97889
858.2	0.97714
858.4	0.97778
858.6	0.97904
858.8	0.97954
859.0	0.98169
859.2	0.97927
859.4	0.97614
859.6	0.97352
859.8	0.97229
860.0	0.97169
860.2	0.97139
860.4	0.9706
860.6	0.97197
860.8	0.97254
861.0	0.97331
861.2	0.97466
861.4	0.97448
861.6	0.97612
861.8	0.9776
862.0	0.97895
862.2	0.97902
862.4	0.97894
862.6	0.97608
862.8	0.97632
863.0	0.97844
863.2	0.97951
863.4	0.98083
863.6	0.97814
863.8	0.97776
864.0	0.97858
864.2	0.97939
864.4	0.97999
864.6	0.97946
864.8	0.97844
865.0	0.97774
865.2	0.97963
865.4	0.97944
865.6	0.97923
865.8	0.98084
866.0	0.98082
866.2	0.97937
866.4	0.98005
866.6	0.97858
866.8	0.97953
867.0	0.98128
867.2	0.98253
867.4	0.98153
867.6	0.9824
867.8	0.9816
868.0	0.9831
868.2	0.98361
868.4	0.98134
868.6	0.98055
868.8	0.98109
869.0	0.98167
869.2	0.981
869.4	0.98095
869.6	0.98278
869.8	0.98496
870.0	0.98445
870.2	0.9831
870.4	0.98318
870.6	0.98337
870.8	0.98449
871.0	0.98333
871.2	0.98168
871.4	0.98059
871.6	0.97943
871.8	0.97715
872.0	0.97934
872.2	0.97844
872.4	0.97709
872.6	0.97641
872.8	0.972
873.0	0.97129
873.2	0.97136
873.4	0.97318
873.6	0.97284
873.8	0.97566
874.0	0.97729
874.2	0.97584
874.4	0.97685
874.6	0.97586
874.8	0.97532
875.0	0.9755
875.2	0.97499
875.4	0.97438
875.6	0.97568
875.8	0.97474
876.0	0.97549
876.2	0.97607
876.4	0.97615
876.6	0.9751
876.8	0.97378
877.0	0.97384
877.2	0.97361
877.4	0.97541
877.6	0.97681
877.8	0.97782
878.0	0.9786
878.2	0.97772
878.4	0.98069
878.6	0.98186
878.8	0.98374
879.0	0.98497
879.2	0.98394
879.4	0.98262
879.6	0.98207
879.8	0.98176
880.0	0.98212
880.2	0.9823
880.4	0.98239
880.6	0.98192
880.8	0.98145
881.0	0.98143
881.2	0.98272
881.4	0.98406
881.6	0.98462
881.8	0.98674
882.0	0.98634
882.2	0.98593
882.4	0.98699
882.6	0.9876
882.8	0.98615
883.0	0.98538
883.2	0.98445
883.4	0.98303
883.6	0.98168
883.8	0.98316
884.0	0.98272
884.2	0.98212
884.4	0.97996
884.6	0.97787
884.8	0.97647
885.0	0.97826
885.2	0.97893
885.4	0.98045
885.6	0.98213
885.8	0.98143
886.0	0.98079
886.2	0.98018
886.4	0.97961
886.6	0.9799
886.8	0.98185
887.0	0.98157
887.2	0.9795
887.4	0.97875
887.6	0.97751
887.8	0.97597
888.0	0.97691
888.2	0.97569
888.4	0.97474
888.6	0.97425
888.8	0.97484
889.0	0.97206
889.2	0.97056
889.4	0.96934
889.6	0.97071
889.8	0.97253
890.0	0.97343
890.2	0.97385
890.4	0.97661
890.6	0.97912
890.8	0.9811
891.0	0.98087
891.2	0.98074
891.4	0.97985
891.6	0.98131
891.8	0.98232
892.0	0.98192
892.2	0.98015
892.4	0.97986
892.6	0.98134
892.8	0.98148
893.0	0.9815
893.2	0.97998
893.4	0.97911
893.6	0.97886
893.8	0.97878
894.0	0.97779
894.2	0.98001
894.4	0.98103
894.6	0.98101
894.8	0.98027
895.0	0.97841
895.2	0.97666
895.4	0.97915
895.6	0.979
895.8	0.97788
896.0	0.97768
896.2	0.97616
896.4	0.97476
896.6	0.97735
896.8	0.97812
897.0	0.97925
897.2	0.97912
897.4	0.97758
897.6	0.97758
897.8	0.979
898.0	0.97817
898.2	0.97783
898.4	0.97845
898.6	0.97735
898.8	0.97688
899.0	0.97582
899.2	0.97608
899.4	0.97876
899.6	0.97922
899.8	0.98145
900.0	0.98061
900.2	0.97884
900.4	0.97641
900.6	0.97643
900.8	0.97529
901.0	0.97602
901.2	0.97664
901.4	0.9759
901.6	0.97595
901.8	0.97542
902.0	0.97367
902.2	0.97161
902.4	0.97134
902.6	0.97127
902.8	0.97454
903.0	0.97538
903.2	0.97322
903.4	0.97403
903.6	0.97313
903.8	0.97371
904.0	0.97189
904.2	0.97076
904.4	0.97047
904.6	0.97193
904.8	0.97236
905.0	0.97235
905.2	0.97367
905.4	0.97542
905.6	0.97574
905.8	0.97302
906.0	0.97165
906.2	0.97239
906.4	0.97278
906.6	0.97306
906.8	0.97418
907.0	0.97535
907.2	0.97722
907.4	0.98102
907.6	0.98163
907.8	0.98107
908.0	0.97956
908.2	0.97892
908.4	0.97868
908.6	0.9794
908.8	0.97877
909.0	0.97893
909.2	0.97981
909.4	0.98063
909.6	0.98299
909.8	0.98366
910.0	0.98472
910.2	0.98472
910.4	0.98562
910.6	0.9863
910.8	0.98583
911.0	0.98399
911.2	0.983
911.4	0.98015
911.6	0.97874
911.8	0.97784
912.0	0.97761
912.2	0.97773
912.4	0.97836
912.6	0.98095
912.8	0.98277
913.0	0.98225
913.2	0.98134
913.4	0.98162
913.6	0.98008
913.8	0.98003
914.0	0.9804
914.2	0.97921
914.4	0.97773
914.6	0.97774
914.8	0.9768
915.0	0.97605
915.2	0.97378
915.4	0.97356
915.6	0.97214
915.8	0.97105
916.0	0.97096
916.2	0.97221
916.4	0.97275
916.6	0.97308
916.8	0.97288
917.0	0.97335
917.2	0.97679
917.4	0.97759
917.6	0.97746
917.8	0.97568
918.0	0.97505
918.2	0.97668
918.4	0.97404
918.6	0.97081
918.8	0.9712
919.0	0.97097
919.2	0.97045
919.4	0.97381
919.6	0.97494
919.8	0.97568
920.0	0.9753
920.2	0.97545
920.4	0.9747
920.6	0.97514
920.8	0.97458
921.0	0.97559
921.2	0.97665
921.4	0.97422
921.6	0.97565
921.8	0.9766
922.0	0.97622
922.2	0.97696
922.4	0.97667
922.6	0.97796
922.8	0.97668
923.0	0.97619
923.2	0.97764
923.4	0.97901
923.6	0.97965
923.8	0.97865
924.0	0.97669
924.2	0.97769
924.4	0.97647
924.6	0.97742
924.8	0.97966
925.0	0.97862
925.2	0.97743
925.4	0.97862
925.6	0.97743
925.8	0.97756
926.0	0.97912
926.2	0.98005
926.4	0.97849
926.6	0.98047
926.8	0.98299
927.0	0.98523
927.2	0.98398
927.4	0.98319
927.6	0.98289
927.8	0.98227
928.0	0.98053
928.2	0.98009
928.4	0.98243
928.6	0.98273
928.8	0.98272
929.0	0.98061
929.2	0.97832
929.4	0.97881
929.6	0.97983
929.8	0.98307
930.0	0.98295
930.2	0.98194
930.4	0.98147
930.6	0.98034
930.8	0.97924
931.0	0.97953
931.2	0.9776
931.4	0.97468
931.6	0.97526
931.8	0.97679
932.0	0.97881
932.2	0.97789
932.4	0.97628
932.6	0.97289
932.8	0.9713
933.0	0.96895
933.2	0.96711
933.4	0.96888
933.6	0.9693
933.8	0.96902
934.0	0.96873
934.2	0.96845
934.4	0.96822
934.6	0.9677
934.8	0.96913
935.0	0.96958
935.2	0.97018
935.4	0.97126
935.6	0.97161
935.8	0.97197
936.0	0.97185
936.2	0.96905
936.4	0.96824
936.6	0.96899
936.8	0.97125
937.0	0.97321
937.2	0.97306
937.4	0.97549
937.6	0.97725
937.8	0.97523
938.0	0.97379
938.2	0.97655
938.4	0.97691
938.6	0.97828
938.8	0.97958
939.0	0.9799
939.2	0.98042
939.4	0.97853
939.6	0.97622
939.8	0.9748
940.0	0.97459
940.2	0.97725
940.4	0.98014
940.6	0.98029
940.8	0.98129
941.0	0.9775
941.2	0.97572
941.4	0.97809
941.6	0.98099
941.8	0.97899
942.0	0.978
942.2	0.97736
942.4	0.9771
942.6	0.97759
942.8	0.98055
943.0	0.98281
943.2	0.98435
943.4	0.98445
943.6	0.98586
943.8	0.98758
944.0	0.98621
944.2	0.9842
944.4	0.98116
944.6	0.98076
944.8	0.98141
945.0	0.98091
945.2	0.97916
945.4	0.97998
945.6	0.98048
945.8	0.97969
946.0	0.98045
946.2	0.97988
946.4	0.97779
946.6	0.97727
946.8	0.97741
947.0	0.97671
947.2	0.97628
947.4	0.97668
947.6	0.97876
947.8	0.97997
948.0	0.98097
948.2	0.97982
948.4	0.97794
948.6	0.97571
948.8	0.9719
949.0	0.97047
949.2	0.96999
949.4	0.97041
949.6	0.97015
949.8	0.97118
950.0	0.97159
950.2	0.97462
950.4	0.97781
950.6	0.97905
950.8	0.9784
951.0	0.97542
951.2	0.97529
951.4	0.97316
951.6	0.97095
951.8	0.97246
952.0	0.97063
952.2	0.96993
952.4	0.96938
952.6	0.96858
952.8	0.96895
953.0	0.97087
953.2	0.97193
953.4	0.97264
953.6	0.97595
953.8	0.97589
954.0	0.9753
954.2	0.97677
954.4	0.97707
954.6	0.97701
954.8	0.9743
955.0	0.97368
955.2	0.97161
955.4	0.97084
955.6	0.9727
955.8	0.97479
956.0	0.97304
956.2	0.97389
956.4	0.97486
956.6	0.97602
956.8	0.9789
957.0	0.97791
957.2	0.97489
957.4	0.97254
957.6	0.97091
957.8	0.97236
958.0	0.97361
958.2	0.97453
958.4	0.97393
958.6	0.97622
958.8	0.97765
959.0	0.9755
959.2	0.97585
959.4	0.97651
959.6	0.97554
959.8	0.97479
960.0	0.97612
960.2	0.97663
960.4	0.97792
960.6	0.98109
960.8	0.98036
961.0	0.97967
961.2	0.97834
961.4	0.97628
961.6	0.97445
961.8	0.97536
962.0	0.97472
962.2	0.97426
962.4	0.97541
962.6	0.97763
962.8	0.98029
963.0	0.98301
963.2	0.98383
963.4	0.98289
963.6	0.98058
963.8	0.98038
964.0	0.97977
964.2	0.98091
964.4	0.98108
964.6	0.97898
964.8	0.97746
965.0	0.97807
965.2	0.97894
965.4	0.97944
965.6	0.97867
965.8	0.97717
966.0	0.97791
966.2	0.97695
966.4	0.97419
966.6	0.97223
966.8	0.97118
967.0	0.9715
967.2	0.97271
967.4	0.9722
967.6	0.97009
967.8	0.9696
968.0	0.97011
968.2	0.97167
968.4	0.975
968.6	0.97604
968.8	0.97703
969.0	0.97646
969.2	0.97496
969.4	0.9756
969.6	0.97563
969.8	0.97299
970.0	0.97209
970.2	0.97063
970.4	0.97023
970.6	0.96892
970.8	0.96952
971.0	0.97139
971.2	0.97096
971.4	0.97057
971.6	0.97282
971.8	0.97445
972.0	0.97458
972.2	0.97385
972.4	0.9713
972.6	0.9688
972.8	0.969
973.0	0.97123
973.2	0.97133
973.4	0.97047
973.6	0.96864
973.8	0.96926
974.0	0.96787
974.2	0.969
974.4	0.97257
974.6	0.9735
974.8	0.97435
975.0	0.9755
975.2	0.97626
975.4	0.97756
975.6	0.97751
975.8	0.97688
976.0	0.97622
976.2	0.97646
976.4	0.97571
976.6	0.97542
976.8	0.97437
977.0	0.97499
977.2	0.9771
977.4	0.97821
977.6	0.97792
977.8	0.97815
978.0	0.9779
978.2	0.97704
978.4	0.97925
978.6	0.97997
978.8	0.98012
979.0	0.98068
979.2	0.98086
979.4	0.98144
979.6	0.98089
979.8	0.97939
980.0	0.9791
980.2	0.97804
980.4	0.97757
980.6	0.97615
980.8	0.9768
981.0	0.97682
981.2	0.97657
981.4	0.97401
981.6	0.97369
981.8	0.97448
982.0	0.97571
982.2	0.97685
982.4	0.97799
982.6	0.97761
982.8	0.97781
983.0	0.97827
983.2	0.9801
983.4	0.9806
983.6	0.98208
983.8	0.98124
984.0	0.97907
984.2	0.97793
984.4	0.97835
984.6	0.97574
984.8	0.9759
985.0	0.97598
985.2	0.97558
985.4	0.97604
985.6	0.97459
985.8	0.9749
986.0	0.97393
986.2	0.97463
986.4	0.97491
986.6	0.97383
986.8	0.97431
987.0	0.97673
987.2	0.97557
987.4	0.97511
987.6	0.97561
987.8	0.97358
988.0	0.97408
988.2	0.97248
988.4	0.97134
988.6	0.97452
988.8	0.97692
989.0	0.97591
989.2	0.97475
989.4	0.97433
989.6	0.97456
989.8	0.97525
990.0	0.97479
990.2	0.97634
990.4	0.97666
990.6	0.97666
990.8	0.97671
991.0	0.97472
991.2	0.97434
991.4	0.97417
991.6	0.97625
991.8	0.97333
992.0	0.97157
992.2	0.97375
992.4	0.97497
992.6	0.9755
992.8	0.97496
993.0	0.97527
993.2	0.97433
993.4	0.97451
993.6	0.97426
993.8	0.97392
994.0	0.97495
994.2	0.975
994.4	0.97581
994.6	0.97597
994.8	0.97558
995.0	0.97495
995.2	0.9746
995.4	0.97545
995.6	0.97546
995.8	0.97462
996.0	0.97637
996.2	0.97697
996.4	0.97555
996.6	0.97566
996.8	0.97383
997.0	0.97297
997.2	0.9751
997.4	0.97895
997.6	0.97694
997.8	0.97394
998.0	0.97395
998.2	0.97695
998.4	0.97848
998.6	0.97856
998.8	0.97914
999.0	0.97862
999.2	0.97785
999.4	0.97751
999.6	0.97662
999.8	0.97677
1000.0	0.9789
1000.2	0.97989
1000.4	0.98063
1000.6	0.98155
1000.8	0.98161
1001.0	0.98359
1001.2	0.98513
1001.4	0.9842
1001.6	0.98209
1001.8	0.98107
1002.0	0.97983
1002.2	0.98261
1002.4	0.9833
1002.6	0.98181
1002.8	0.98084
1003.0	0.97988
1003.2	0.97895
1003.4	0.97828
1003.6	0.97769
1003.8	0.97785
1004.0	0.97826
1004.2	0.97581
1004.4	0.97572
1004.6	0.97655
1004.8	0.97727
1005.0	0.9769
1005.2	0.97727
1005.4	0.97731
1005.6	0.97625
1005.8	0.9737
1006.0	0.97192
1006.2	0.97279
1006.4	0.9722
1006.6	0.97145
1006.8	0.96991
1007.0	0.96967
1007.2	0.96957
1007.4	0.97082
1007.6	0.97225
1007.8	0.97328
1008.0	0.97504
1008.2	0.9758
1008.4	0.97572
1008.6	0.97473
1008.8	0.97453
1009.0	0.97509
1009.2	0.97405
1009.4	0.97398
1009.6	0.97192
1009.8	0.97173
1010.0	0.97302
1010.2	0.97338
1010.4	0.9738
1010.6	0.97269
1010.8	0.97186
1011.0	0.97166
1011.2	0.97056
1011.4	0.97169
1011.6	0.97416
1011.8	0.9746
1012.0	0.97503
1012.2	0.97561
1012.4	0.97593
1012.6	0.9759
1012.8	0.97494
1013.0	0.97384
1013.2	0.97293
1013.4	0.97278
1013.6	0.97271
1013.8	0.97413
1014.0	0.97311
1014.2	0.97247
1014.4	0.97173
1014.6	0.97204
1014.8	0.97249
1015.0	0.97359
1015.2	0.97499
1015.4	0.97579
1015.6	0.97581
1015.8	0.97605
1016.0	0.97673
1016.2	0.97748
1016.4	0.97816
1016.6	0.9798
1016.8	0.9795
1017.0	0.9785
1017.2	0.98069
1017.4	0.98041
1017.6	0.97839
1017.8	0.97663
1018.0	0.97749
1018.2	0.97888
1018.4	0.98072
1018.6	0.98016
1018.8	0.97965
1019.0	0.97764
1019.2	0.97775
1019.4	0.97984
1019.6	0.98118
1019.8	0.98223
1020.0	0.98095
1020.2	0.98077
1020.4	0.98038
1020.6	0.97882
1020.8	0.97898
1021.0	0.97893
1021.2	0.97888
1021.4	0.97874
1021.6	0.97635
1021.8	0.9756
1022.0	0.97616
1022.2	0.9767
1022.4	0.97417
1022.6	0.9723
1022.8	0.97093
1023.0	0.97084
1023.2	0.97177
1023.4	0.97291
1023.6	0.97463
1023.8	0.97377
1024.0	0.97126
1024.2	0.97025
1024.4	0.97093
1024.6	0.97402
1024.8	0.97436
1025.0	0.97281
1025.2	0.97376
1025.4	0.97082
1025.6	0.96855
1025.8	0.97
1026.0	0.97412
1026.2	0.97292
1026.4	0.96923
1026.6	0.96763
1026.8	0.9686
1027.0	0.97068
1027.2	0.9719
1027.4	0.9733
1027.6	0.97268
1027.8	0.9719
1028.0	0.97334
1028.2	0.9713
1028.4	0.96777
1028.6	0.96854
1028.8	0.96867
1029.0	0.96687
1029.2	0.96712
1029.4	0.96788
1029.6	0.96795
1029.8	0.96865
1030.0	0.97039
1030.2	0.97117
1030.4	0.97294
1030.6	0.97275
1030.8	0.97115
1031.0	0.97127
1031.2	0.96964
1031.4	0.97059
1031.6	0.97081
1031.8	0.97082
1032.0	0.97088
1032.2	0.9716
1032.4	0.97218
1032.6	0.97424
1032.8	0.97345
1033.0	0.97453
1033.2	0.97459
1033.4	0.97393
1033.6	0.97432
1033.8	0.97575
1034.0	0.97654
1034.2	0.97788
1034.4	0.97904
1034.6	0.97969
1034.8	0.97804
1035.0	0.97693
1035.2	0.97554
1035.4	0.97546
1035.6	0.97766
1035.8	0.97751
1036.0	0.97732
1036.2	0.97902
1036.4	0.97716
1036.6	0.9775
1036.8	0.97514
1037.0	0.97352
1037.2	0.97176
1037.4	0.97223
1037.6	0.9728
1037.8	0.97319
1038.0	0.97514
1038.2	0.97882
1038.4	0.98257
1038.6	0.98012
1038.8	0.97867
1039.0	0.97894
1039.2	0.97879
1039.4	0.9769
1039.6	0.97418
1039.8	0.97319
1040.0	0.97324
1040.2	0.97484
1040.4	0.97333
1040.6	0.9724
1040.8	0.97297
1041.0	0.97343
1041.2	0.97504
1041.4	0.97547
1041.6	0.9737
1041.8	0.97471
1042.0	0.97609
1042.2	0.97603
1042.4	0.9749
1042.6	0.97364
1042.8	0.97565
1043.0	0.97494
1043.2	0.97461
1043.4	0.97705
1043.6	0.97592
1043.8	0.97505
1044.0	0.97444
1044.2	0.9716
1044.4	0.97236
1044.6	0.97282
1044.8	0.97321
1045.0	0.97302
1045.2	0.97361
1045.4	0.97396
1045.6	0.97498
1045.8	0.97325
1046.0	0.97139
1046.2	0.969
1046.4	0.96974
1046.6	0.97139
1046.8	0.971
1047.0	0.97247
1047.2	0.97183
1047.4	0.97452
1047.6	0.97593
1047.8	0.97419
1048.0	0.97415
1048.2	0.97283
1048.4	0.9718
1048.6	0.97282
1048.8	0.97194
1049.0	0.97016
1049.2	0.96803
1049.4	0.97201
1049.6	0.96847
1049.8	0.9686
1050.0	0.96779
1050.2	0.97036
1050.4	0.97132
1050.6	0.97034
1050.8	0.97265
1051.0	0.9757
1051.2	0.97444
1051.4	0.97575
1051.6	0.97576
1051.8	0.97564
1052.0	0.97534
1052.2	0.97664
1052.4	0.97688
1052.6	0.97458
1052.8	0.97409
1053.0	0.97597
1053.2	0.97373
1053.4	0.97358
1053.6	0.97563
1053.8	0.97625
1054.0	0.97546
1054.2	0.97691
1054.4	0.97675
1054.6	0.97909
1054.8	0.98099
1055.0	0.98175
1055.2	0.97897
1055.4	0.97987
1055.6	0.97942
1055.8	0.97667
1056.0	0.97808
1056.2	0.98058
1056.4	0.98276
1056.6	0.98167
1056.8	0.98001
1057.0	0.98022
1057.2	0.98186
1057.4	0.98017
1057.6	0.98063
1057.8	0.98074
1058.0	0.97871
1058.2	0.98089
1058.4	0.98108
1058.6	0.98141
1058.8	0.98201
1059.0	0.9836
1059.2	0.98439
1059.4	0.98241
1059.6	0.98148
1059.8	0.98043
1060.0	0.97937
1060.2	0.97876
1060.4	0.98056
1060.6	0.97826
1060.8	0.97713
1061.0	0.97819
1061.2	0.97772
1061.4	0.97817
1061.6	0.97784
1061.8	0.97748
1062.0	0.97847
1062.2	0.97665
1062.4	0.97678
1062.6	0.97522
1062.8	0.97198
1063.0	0.97282
1063.2	0.97269
1063.4	0.97204
1063.6	0.97298
1063.8	0.97384
1064.0	0.97076
1064.2	0.96977
1064.4	0.97005
1064.6	0.97129
1064.8	0.96971
1065.0	0.97198
1065.2	0.97531
1065.4	0.97324
1065.6	0.97404
1065.8	0.97482
1066.0	0.97636
1066.2	0.97696
1066.4	0.97486
1066.6	0.97386
1066.8	0.97459
1067.0	0.97439
1067.2	0.97149
1067.4	0.97019
1067.6	0.97201
1067.8	0.97197
1068.0	0.96973
1068.2	0.97005
1068.4	0.96974
1068.6	0.97068
1068.8	0.968
1069.0	0.96855
1069.2	0.96953
1069.4	0.97076
1069.6	0.97113
1069.8	0.97077
1070.0	0.97296
1070.2	0.9709
1070.4	0.96943
1070.6	0.9708
1070.8	0.9683
1071.0	0.96672
1071.2	0.9665
1071.4	0.97075
1071.6	0.96961
1071.8	0.96747
1072.0	0.96897
1072.2	0.9727
1072.4	0.97132
1072.6	0.97627
1072.8	0.97745
1073.0	0.97949
1073.2	0.97952
1073.4	0.97723
1073.6	0.97747
1073.8	0.97979
1074.0	0.97909
1074.2	0.98042
1074.4	0.97908
1074.6	0.97911
1074.8	0.97769
1075.0	0.97623
1075.2	0.97519
1075.4	0.97733
1075.6	0.97816
1075.8	0.97889
1076.0	0.97806
1076.2	0.97886
1076.4	0.98061
1076.6	0.97905
1076.8	0.98245
1077.0	0.98255
1077.2	0.98308
1077.4	0.98449
1077.6	0.98101
1077.8	0.97841
1078.0	0.98068
1078.2	0.97966
1078.4	0.97964
1078.6	0.97909
1078.8	0.97962
1079.0	0.9848
1079.2	0.98153
1079.4	0.98269
1079.6	0.98236
1079.8	0.98056
1080.0	0.98197
1080.2	0.98331
1080.4	0.98535
1080.6	0.98447
1080.8	0.98315
1081.0	0.98257
1081.2	0.98275
1081.4	0.98183
1081.6	0.98239
1081.8	0.98019
1082.0	0.98229
1082.2	0.98154
1082.4	0.98154
1082.6	0.9804
1082.8	0.98228
1083.0	0.97869
1083.2	0.98113
1083.4	0.98136
1083.6	0.97903
1083.8	0.97801
1084.0	0.97839
1084.2	0.9754
1084.4	0.97589
1084.6	0.97546
1084.8	0.97411
1085.0	0.97522
1085.2	0.97538
1085.4	0.9748
1085.6	0.97252
1085.8	0.97625
1086.0	0.97303
1086.2	0.97535
1086.4	0.97225
1086.6	0.97447
1086.8	0.96811
1087.0	0.96959
1087.2	0.9696
1087.4	0.97109
1087.6	0.97289
1087.8	0.96906
1088.0	0.96735
1088.2	0.96809
1088.4	0.96835
1088.6	0.9689
1088.8	0.97098
1089.0	0.96843
1089.2	0.96812
1089.4	0.96624
1089.6	0.96851
1089.8	0.96968
1090.0	0.96996
1090.2	0.97151
1090.4	0.97572
1090.6	0.97759
1090.8	0.98119
1091.0	0.9775
1091.2	0.97822
1091.4	0.97898
1091.6	0.97812
1091.8	0.97638
1092.0	0.97977
1092.2	0.97952
1092.4	0.97756
1092.6	0.98068
1092.8	0.97684
1093.0	0.9745
1093.2	0.97827
1093.4	0.97959
1093.6	0.97893
1093.8	0.97982
1094.0	0.9777
1094.2	0.97575
1094.4	0.9731
1094.6	0.97752
1094.8	0.97508
1095.0	0.97108
1095.2	0.97483
1095.4	0.97277
1095.6	0.9759
1095.8	0.97562
1096.0	0.9777
1096.2	0.97472
1096.4	0.97708
1096.6	0.97634
1096.8	0.98019
1097.0	0.98266
1097.2	0.98153
1097.4	0.97911
1097.6	0.98434
1097.8	0.98551
1098.0	0.98553
1098.2	0.98747
1098.4	0.98672
1098.6	0.98258
1098.8	0.9883
1099.0	0.9862
1099.2	0.98793
1099.4	0.98979
1099.6	0.98475
1099.8	0.9846
1100.0	0.98489
1100.2	0.98343
1100.4	0.98108
1100.6	0.9834
1100.8	0.98657
1101.0	0.98587
1101.2	0.98602
1101.4	0.98424
1101.6	0.98623
1101.8	0.9877
1102.0	0.98597
1102.2	0.98497
1102.4	0.98563
1102.6	0.98742
1102.8	0.98522
1103.0	0.98339
1103.2	0.98578
1103.4	0.98344
1103.6	0.9872
1103.8	0.98785
1104.0	0.97871
1104.2	0.97779
1104.4	0.97845
1104.6	0.98067
1104.8	0.98557
1105.0	0.98175
1105.2	0.97884
1105.4	0.9808
1105.6	0.97733
1105.8	0.97934
1106.0	0.98017
1106.2	0.98147
1106.4	0.97676
1106.6	0.97742
1106.8	0.97881
1107.0	0.98117
1107.2	0.98751
1107.4	0.98597
1107.6	0.9831
1107.8	0.9822
1108.0	0.97816
1108.2	0.98022
1108.4	0.9758
1108.6	0.9779
1108.8	0.97524
1109.0	0.98014
1109.2	0.9798
1109.4	0.9742
1109.6	0.97555
1109.8	0.97634
1110.0	0.97518
1110.2	0.97474
1110.4	0.97435
1110.6	0.97414
1110.8	0.97241
1111.0	0.968
1111.2	0.97517
1111.4	0.96989
1111.6	0.97753
1111.8	0.97403
1112.0	0.97423
1112.2	0.97111
1112.4	0.97122
1112.6	0.97059
1112.8	0.97227
1113.0	0.96778
1113.2	0.97157
1113.4	0.96781
1113.6	0.97092
1113.8	0.97338
1114.0	0.97687
1114.2	0.96992
1114.4	0.9713
1114.6	0.97393
1114.8	0.97016
1115.0	0.96956
1115.2	0.97171
1115.4	0.97123
1115.6	0.97433
1115.8	0.97197
1116.0	0.97256
1116.2	0.97391
1116.4	0.97519
1116.6	0.97272
1116.8	0.97697
1117.0	0.9782
1117.2	0.97546
1117.4	0.97822
1117.6	0.97874
1117.8	0.9827
1118.0	0.98827
1118.2	0.97955
1118.4	0.97859
1118.6	0.98162
1118.8	0.97733
1119.0	0.97803
1119.2	0.97672
1119.4	0.97992
1119.6	0.9862
1119.8	0.98855
1120.0	0.98657
1120.2	0.98533
1120.4	0.9783
1120.6	0.98653
1120.8	0.98832
1121.0	0.98735
1121.2	0.98514
1121.4	0.98909
1121.6	0.99063
1121.8	0.98923
1122.0	0.98506
1122.2	0.98973
1122.4	0.99225
1122.6	0.99044
1122.8	0.99184
1123.0	0.98706
1123.2	0.98929
1123.4	0.99032
1123.6	0.98608
1123.8	0.98761
1124.0	0.98047
1124.2	0.98016
1124.4	0.98174
1124.6	0.98172
1124.8	0.9815
1125.0	0.98298
1125.2	0.98299
1125.4	0.9826
1125.6	0.98221
1125.8	0.98182
1126.0	0.98143
1126.2	0.98104
1126.4	0.98065
1126.6	0.98026
1126.8	0.97986
1127.0	0.97947
1127.2	0.97908
1127.4	0.97869
1127.6	0.9783
1127.8	0.97791
1128.0	0.97752
1128.2	0.97713
1128.4	0.97674
1128.6	0.97635
1128.8	0.97595
1129.0	0.97556
1129.2	0.97517
1129.4	0.97478
1129.6	0.97439
1129.8	0.974
1130.0	0.97361
1130.2	0.97354
1130.4	0.97357
1130.6	0.97359
1130.8	0.97362
1131.0	0.97364
1131.2	0.97367
1131.4	0.9737
1131.6	0.97372
1131.8	0.97375
1132.0	0.97377
1132.2	0.9738
1132.4	0.97382
1132.6	0.97385
1132.8	0.97387
1133.0	0.9739
1133.2	0.97393
1133.4	0.97395
1133.6	0.97398
1133.8	0.974
1134.0	0.97403
1134.2	0.97405
1134.4	0.97408
1134.6	0.9741
1134.8	0.97413
1135.0	0.97415
1135.2	0.97406
1135.4	0.97393
1135.6	0.9738
1135.8	0.97366
1136.0	0.97353
1136.2	0.9734
1136.4	0.97327
1136.6	0.97314
1136.8	0.97301
1137.0	0.97288
1137.2	0.97275
1137.4	0.97261
1137.6	0.97248
1137.8	0.97235
1138.0	0.97222
1138.2	0.97209
1138.4	0.97196
1138.6	0.97183
1138.8	0.9717
1139.0	0.97156
1139.2	0.97143
1139.4	0.9713
1139.6	0.97117
1139.8	0.97104
1140.0	0.97091
1140.2	0.9709
1140.4	0.97092
1140.6	0.97094
1140.8	0.97096
1141.0	0.97099
1141.2	0.97101
1141.4	0.97103
1141.6	0.97105
1141.8	0.97108
1142.0	0.9711
1142.2	0.97112
1142.4	0.97114
1142.6	0.97117
1142.8	0.97119
1143.0	0.97121
1143.2	0.97123
1143.4	0.97126
1143.6	0.97128
1143.8	0.9713
1144.0	0.97132
1144.2	0.97135
1144.4	0.97137
1144.6	0.97139
1144.8	0.97141
1145.0	0.97144
1145.2	0.97153
1145.4	0.97164
1145.6	0.97174
1145.8	0.97185
1146.0	0.97196
1146.2	0.97207
1146.4	0.97218
1146.6	0.97229
1146.8	0.9724
1147.0	0.97251
1147.2	0.97261
1147.4	0.97272
1147.6	0.97283
1147.8	0.97294
1148.0	0.97305
1148.2	0.97316
1148.4	0.97327
1148.6	0.97338
1148.8	0.97348
1149.0	0.97359
1149.2	0.9737
1149.4	0.97381
1149.6	0.97392
1149.8	0.97403
1150.0	0.97414
1150.2	0.97414
1150.4	0.97412
1150.6	0.97409
1150.8	0.97407
1151.0	0.97405
1151.2	0.97402
1151.4	0.974
1151.6	0.97397
1151.8	0.97395
1152.0	0.97392
1152.2	0.9739
1152.4	0.97388
1152.6	0.97385
1152.8	0.97383
1153.0	0.9738
1153.2	0.97378
1153.4	0.97376
1153.6	0.97373
1153.8	0.97371
1154.0	0.97368
1154.2	0.97366
1154.4	0.97363
1154.6	0.97361
1154.8	0.97359
1155.0	0.97356
1155.2	0.97357
1155.4	0.97359
1155.6	0.97361
1155.8	0.97364
1156.0	0.97366
1156.2	0.97368
1156.4	0.9737
1156.6	0.97372
1156.8	0.97374
1157.0	0.97376
1157.2	0.97378
1157.4	0.9738
1157.6	0.97382
1157.8	0.97385
1158.0	0.97387
1158.2	0.97389
1158.4	0.97391
1158.6	0.97393
1158.8	0.97395
1159.0	0.97397
1159.2	0.97399
1159.4	0.97401
1159.6	0.97403
1159.8	0.97406
1160.0	0.97408
1160.2	0.97405
1160.4	0.974
1160.6	0.97396
1160.8	0.97391
1161.0	0.97387
1161.2	0.97382
1161.4	0.97378
1161.6	0.97374
1161.8	0.97369
1162.0	0.97365
1162.2	0.9736
1162.4	0.97356
1162.6	0.97351
1162.8	0.97347
1163.0	0.97342
1163.2	0.97338
1163.4	0.97334
1163.6	0.97329
1163.8	0.97325
1164.0	0.9732
1164.2	0.97316
1164.4	0.97311
1164.6	0.97307
1164.8	0.97302
1165.0	0.97298
1165.2	0.973
1165.4	0.97304
1165.6	0.97308
1165.8	0.97312
1166.0	0.97316
1166.2	0.9732
1166.4	0.97324
1166.6	0.97328
1166.8	0.97332
1167.0	0.97336
1167.2	0.97339
1167.4	0.97343
1167.6	0.97347
1167.8	0.97351
1168.0	0.97355
1168.2	0.97359
1168.4	0.97363
1168.6	0.97367
1168.8	0.97371
1169.0	0.97375
1169.2	0.97379
1169.4	0.97383
1169.6	0.97387
1169.8	0.97391
1170.0	0.97395
1170.2	0.97385
1170.4	0.97371
1170.6	0.97357
1170.8	0.97343
1171.0	0.9733
1171.2	0.97316
1171.4	0.97302
1171.6	0.97288
1171.8	0.97274
1172.0	0.9726
1172.2	0.97246
1172.4	0.97233
1172.6	0.97219
1172.8	0.97205
1173.0	0.97191
1173.2	0.97177
1173.4	0.97163
1173.6	0.9715
1173.8	0.97136
1174.0	0.97122
1174.2	0.97108
1174.4	0.97094
1174.6	0.9708
1174.8	0.97066
1175.0	0.97053
1175.2	0.97049
1175.4	0.97049
1175.6	0.97049
1175.8	0.97049
1176.0	0.97049
1176.2	0.97049
1176.4	0.97048
1176.6	0.97048
1176.8	0.97048
1177.0	0.97048
1177.2	0.97048
1177.4	0.97048
1177.6	0.97048
1177.8	0.97047
1178.0	0.97047
1178.2	0.97047
1178.4	0.97047
1178.6	0.97047
1178.8	0.97047
1179.0	0.97047
1179.2	0.97046
1179.4	0.97046
1179.6	0.97046
1179.8	0.97046
1180.0	0.97046
1180.2	0.97026
1180.4	0.97001
1180.6	0.96976
1180.8	0.96951
1181.0	0.96926
1181.2	0.96901
1181.4	0.96875
1181.6	0.9685
1181.8	0.96825
1182.0	0.968
1182.2	0.96775
1182.4	0.96749
1182.6	0.96724
1182.8	0.96699
1183.0	0.96674
1183.2	0.96649
1183.4	0.96624
1183.6	0.96598
1183.8	0.96573
1184.0	0.96548
1184.2	0.96523
1184.4	0.96498
1184.6	0.96473
1184.8	0.96447
1185.0	0.96422
1185.2	0.96434
1185.4	0.96457
1185.6	0.9648
1185.8	0.96503
1186.0	0.96527
1186.2	0.9655
1186.4	0.96573
1186.6	0.96596
1186.8	0.96619
1187.0	0.96642
1187.2	0.96665
1187.4	0.96688
1187.6	0.96711
1187.8	0.96734
1188.0	0.96758
1188.2	0.96781
1188.4	0.96804
1188.6	0.96827
1188.8	0.9685
1189.0	0.96873
1189.2	0.96896
1189.4	0.96919
1189.6	0.96942
1189.8	0.96965
1190.0	0.96989
1190.2	0.97014
1190.4	0.9704
1190.6	0.97067
1190.8	0.97093
1191.0	0.97119
1191.2	0.97146
1191.4	0.97172
1191.6	0.97198
1191.8	0.97225
1192.0	0.97251
1192.2	0.97277
1192.4	0.97304
1192.6	0.9733
1192.8	0.97356
1193.0	0.97383
1193.2	0.97409
1193.4	0.97435
1193.6	0.97462
1193.8	0.97488
1194.0	0.97514
1194.2	0.97541
1194.4	0.97567
1194.6	0.97593
1194.8	0.9762
1195.0	0.97646
1195.2	0.97647
1195.4	0.9764
1195.6	0.97634
1195.8	0.97627
1196.0	0.97621
1196.2	0.97614
1196.4	0.97608
1196.6	0.97601
1196.8	0.97595
1197.0	0.97588
1197.2	0.97582
1197.4	0.97575
1197.6	0.97569
1197.8	0.97562
1198.0	0.97556
1198.2	0.97549
1198.4	0.97543
1198.6	0.97536
1198.8	0.9753
1199.0	0.97523
1199.2	0.97516
1199.4	0.9751
1199.6	0.97503
1199.8	0.97497
1200.0	0.9749
1200.2	0.97481
1200.4	0.97472
1200.6	0.97462
1200.8	0.97452
1201.0	0.97443
1201.2	0.97433
1201.4	0.97423
1201.6	0.97414
1201.8	0.97404
1202.0	0.97394
1202.2	0.97385
1202.4	0.97375
1202.6	0.97365
1202.8	0.97356
1203.0	0.97346
1203.2	0.97336
1203.4	0.97327
1203.6	0.97317
1203.8	0.97307
1204.0	0.97298
1204.2	0.97288
1204.4	0.97278
1204.6	0.97269
1204.8	0.97259
1205.0	0.97249
1205.2	0.97239
1205.4	0.97229
1205.6	0.97218
1205.8	0.97208
1206.0	0.97197
1206.2	0.97187
1206.4	0.97176
1206.6	0.97166
1206.8	0.97155
1207.0	0.97145
1207.2	0.97134
1207.4	0.97124
1207.6	0.97114
1207.8	0.97103
1208.0	0.97093
1208.2	0.97082
1208.4	0.97072
1208.6	0.97061
1208.8	0.97051
1209.0	0.9704
1209.2	0.9703
1209.4	0.97019
1209.6	0.97009
1209.8	0.96998
1210.0	0.96988